"id","trial","trial_index","abstract","treatment","treatment_string","general_topic","abstract_title","abstract_text","stimulus","decision1_resp","decision1_rt","for_resp","for_resp_factor","for_rt","decision2_resp","decision2_rt","rethink_resp","rethink_rt","read1_rt","read2_rt","study_duration_minutes"
76,3,18,1,1,"conservative","Terrorism in Italy","Aldo Moro kidnapping conducted by left-wing terrorists","This paper revisits the 1978 kidnapping and murder of Aldo Moro, the former prime minister and then-president of the Democrazia Cristiana party, an event orchestrated by the communist terror organization Brigate Rosse. The paper demonstrates how this event highlighted the dangers posed by domestic left-wing terrorist groups and their impact on Italian society. By analyzing legal and parliamentary documents, this paper traces a genealogy of legal and political reforms to combat left-wing extremism and terror in Italy.","text/1b.html_decision1",39,2777,5,6,1940,40,2781,1,856,11724,868,18.2267166666667
26,8,47,1,1,"conservative","Terrorism in Italy","Aldo Moro kidnapping conducted by left-wing terrorists","This paper revisits the 1978 kidnapping and murder of Aldo Moro, the former prime minister and then-president of the Democrazia Cristiana party, an event orchestrated by the communist terror organization Brigate Rosse. The paper demonstrates how this event highlighted the dangers posed by domestic left-wing terrorist groups and their impact on Italian society. By analyzing legal and parliamentary documents, this paper traces a genealogy of legal and political reforms to combat left-wing extremism and terror in Italy.","text/1b.html_decision1",69,2551,6,7,2071,69,2574,0,767,10063,NA,18.1592166666667
45,13,78,1,1,"conservative","Terrorism in Italy","Aldo Moro kidnapping conducted by left-wing terrorists","This paper revisits the 1978 kidnapping and murder of Aldo Moro, the former prime minister and then-president of the Democrazia Cristiana party, an event orchestrated by the communist terror organization Brigate Rosse. The paper demonstrates how this event highlighted the dangers posed by domestic left-wing terrorist groups and their impact on Italian society. By analyzing legal and parliamentary documents, this paper traces a genealogy of legal and political reforms to combat left-wing extremism and terror in Italy.","text/1b.html_decision1",52,2092,5,6,3565,53,1919,0,1235,19802,NA,19.0424
33,11,72,1,-1,"progressive","Terrorism in Italy","Strage di Bologna conducted by right-wing terrorists","This paper revisits the 1980 Strage di Bologna, a bombing at Bologna Central Station that resulted in 85 deaths and over 200 injuries, an event orchestrated by the neofascist terror organization Nuclei Armati Rivoluzionari. The paper demonstrates how this event highlighted the dangers posed by domestic neofascist terrorist groups and their impact on Italian society. By analyzing legal and parliamentary documents, this paper traces a genealogy of legal and political reforms to combat right-wing extremism and terror in Italy.","text/1a.html_decision1",92,4960,6,7,2699,92,3636,0,1315,22727,NA,35.3196166666667
52,6,39,1,1,"conservative","Terrorism in Italy","Aldo Moro kidnapping conducted by left-wing terrorists","This paper revisits the 1978 kidnapping and murder of Aldo Moro, the former prime minister and then-president of the Democrazia Cristiana party, an event orchestrated by the communist terror organization Brigate Rosse. The paper demonstrates how this event highlighted the dangers posed by domestic left-wing terrorist groups and their impact on Italian society. By analyzing legal and parliamentary documents, this paper traces a genealogy of legal and political reforms to combat left-wing extremism and terror in Italy.","text/1b.html_decision1",9,4831,4,5,2823,50,3077,1,1596,22920,6850,56.4502666666667
1,4,23,1,-1,"progressive","Terrorism in Italy","Strage di Bologna conducted by right-wing terrorists","This paper revisits the 1980 Strage di Bologna, a bombing at Bologna Central Station that resulted in 85 deaths and over 200 injuries, an event orchestrated by the neofascist terror organization Nuclei Armati Rivoluzionari. The paper demonstrates how this event highlighted the dangers posed by domestic neofascist terrorist groups and their impact on Italian society. By analyzing legal and parliamentary documents, this paper traces a genealogy of legal and political reforms to combat right-wing extremism and terror in Italy.","text/1a.html_decision1",48,4877,5,6,3389,78,21774,0,1047,19699,NA,18.2111333333333
40,7,47,1,-1,"progressive","Terrorism in Italy","Strage di Bologna conducted by right-wing terrorists","This paper revisits the 1980 Strage di Bologna, a bombing at Bologna Central Station that resulted in 85 deaths and over 200 injuries, an event orchestrated by the neofascist terror organization Nuclei Armati Rivoluzionari. The paper demonstrates how this event highlighted the dangers posed by domestic neofascist terrorist groups and their impact on Italian society. By analyzing legal and parliamentary documents, this paper traces a genealogy of legal and political reforms to combat right-wing extremism and terror in Italy.","text/1a.html_decision1",58,5095,2,3,3877,59,3090,1,1380,29247,15231,21.1929333333333
8,16,98,1,1,"conservative","Terrorism in Italy","Aldo Moro kidnapping conducted by left-wing terrorists","This paper revisits the 1978 kidnapping and murder of Aldo Moro, the former prime minister and then-president of the Democrazia Cristiana party, an event orchestrated by the communist terror organization Brigate Rosse. The paper demonstrates how this event highlighted the dangers posed by domestic left-wing terrorist groups and their impact on Italian society. By analyzing legal and parliamentary documents, this paper traces a genealogy of legal and political reforms to combat left-wing extremism and terror in Italy.","text/1b.html_decision1",40,3953,4,5,2429,39,1409,0,943,12561,NA,18.27305
47,17,101,1,-1,"progressive","Terrorism in Italy","Strage di Bologna conducted by right-wing terrorists","This paper revisits the 1980 Strage di Bologna, a bombing at Bologna Central Station that resulted in 85 deaths and over 200 injuries, an event orchestrated by the neofascist terror organization Nuclei Armati Rivoluzionari. The paper demonstrates how this event highlighted the dangers posed by domestic neofascist terrorist groups and their impact on Italian society. By analyzing legal and parliamentary documents, this paper traces a genealogy of legal and political reforms to combat right-wing extremism and terror in Italy.","text/1a.html_decision1",71,3871,5,6,2449,70,2263,0,1206,18168,NA,14.3545333333333
66,9,61,1,-1,"progressive","Terrorism in Italy","Strage di Bologna conducted by right-wing terrorists","This paper revisits the 1980 Strage di Bologna, a bombing at Bologna Central Station that resulted in 85 deaths and over 200 injuries, an event orchestrated by the neofascist terror organization Nuclei Armati Rivoluzionari. The paper demonstrates how this event highlighted the dangers posed by domestic neofascist terrorist groups and their impact on Italian society. By analyzing legal and parliamentary documents, this paper traces a genealogy of legal and political reforms to combat right-wing extremism and terror in Italy.","text/1a.html_decision1",67,3822,3,4,3431,61,3749,1,2091,13543,5907,19.6713333333333
54,14,86,1,-1,"progressive","Terrorism in Italy","Strage di Bologna conducted by right-wing terrorists","This paper revisits the 1980 Strage di Bologna, a bombing at Bologna Central Station that resulted in 85 deaths and over 200 injuries, an event orchestrated by the neofascist terror organization Nuclei Armati Rivoluzionari. The paper demonstrates how this event highlighted the dangers posed by domestic neofascist terrorist groups and their impact on Italian society. By analyzing legal and parliamentary documents, this paper traces a genealogy of legal and political reforms to combat right-wing extremism and terror in Italy.","text/1a.html_decision1",78,9996,5,6,4873,80,4793,1,2330,4138,14947,18.55555
3,2,12,1,1,"conservative","Terrorism in Italy","Aldo Moro kidnapping conducted by left-wing terrorists","This paper revisits the 1978 kidnapping and murder of Aldo Moro, the former prime minister and then-president of the Democrazia Cristiana party, an event orchestrated by the communist terror organization Brigate Rosse. The paper demonstrates how this event highlighted the dangers posed by domestic left-wing terrorist groups and their impact on Italian society. By analyzing legal and parliamentary documents, this paper traces a genealogy of legal and political reforms to combat left-wing extremism and terror in Italy.","text/1b.html_decision1",47,8177,4,5,4217,60,3276,1,2304,37179,12287,19.1565666666667
23,1,5,1,1,"conservative","Terrorism in Italy","Aldo Moro kidnapping conducted by left-wing terrorists","This paper revisits the 1978 kidnapping and murder of Aldo Moro, the former prime minister and then-president of the Democrazia Cristiana party, an event orchestrated by the communist terror organization Brigate Rosse. The paper demonstrates how this event highlighted the dangers posed by domestic left-wing terrorist groups and their impact on Italian society. By analyzing legal and parliamentary documents, this paper traces a genealogy of legal and political reforms to combat left-wing extremism and terror in Italy.","text/1b.html_decision1",29,7260,4,5,11998,29,5093,1,24715,43364,1860,20.5513333333333
10,16,110,1,1,"conservative","Terrorism in Italy","Aldo Moro kidnapping conducted by left-wing terrorists","This paper revisits the 1978 kidnapping and murder of Aldo Moro, the former prime minister and then-president of the Democrazia Cristiana party, an event orchestrated by the communist terror organization Brigate Rosse. The paper demonstrates how this event highlighted the dangers posed by domestic left-wing terrorist groups and their impact on Italian society. By analyzing legal and parliamentary documents, this paper traces a genealogy of legal and political reforms to combat left-wing extremism and terror in Italy.","text/1b.html_decision1",78,2339,5,6,3263,78,1931,1,851,10764,1007,16.1347333333333
30,5,30,1,-1,"progressive","Terrorism in Italy","Strage di Bologna conducted by right-wing terrorists","This paper revisits the 1980 Strage di Bologna, a bombing at Bologna Central Station that resulted in 85 deaths and over 200 injuries, an event orchestrated by the neofascist terror organization Nuclei Armati Rivoluzionari. The paper demonstrates how this event highlighted the dangers posed by domestic neofascist terrorist groups and their impact on Italian society. By analyzing legal and parliamentary documents, this paper traces a genealogy of legal and political reforms to combat right-wing extremism and terror in Italy.","text/1a.html_decision1",70,6087,4,5,3080,70,3423,0,2599,31044,NA,25.6369333333333
68,2,11,1,-1,"progressive","Terrorism in Italy","Strage di Bologna conducted by right-wing terrorists","This paper revisits the 1980 Strage di Bologna, a bombing at Bologna Central Station that resulted in 85 deaths and over 200 injuries, an event orchestrated by the neofascist terror organization Nuclei Armati Rivoluzionari. The paper demonstrates how this event highlighted the dangers posed by domestic neofascist terrorist groups and their impact on Italian society. By analyzing legal and parliamentary documents, this paper traces a genealogy of legal and political reforms to combat right-wing extremism and terror in Italy.","text/1a.html_decision1",80,9027,4,5,4227,80,6326,0,1446,12155,NA,45.1274166666667
18,3,18,1,-1,"progressive","Terrorism in Italy","Strage di Bologna conducted by right-wing terrorists","This paper revisits the 1980 Strage di Bologna, a bombing at Bologna Central Station that resulted in 85 deaths and over 200 injuries, an event orchestrated by the neofascist terror organization Nuclei Armati Rivoluzionari. The paper demonstrates how this event highlighted the dangers posed by domestic neofascist terrorist groups and their impact on Italian society. By analyzing legal and parliamentary documents, this paper traces a genealogy of legal and political reforms to combat right-wing extremism and terror in Italy.","text/1a.html_decision1",44,4519,3,4,7479,45,3823,0,6143,29782,NA,24.1999833333333
75,6,36,1,-1,"progressive","Terrorism in Italy","Strage di Bologna conducted by right-wing terrorists","This paper revisits the 1980 Strage di Bologna, a bombing at Bologna Central Station that resulted in 85 deaths and over 200 injuries, an event orchestrated by the neofascist terror organization Nuclei Armati Rivoluzionari. The paper demonstrates how this event highlighted the dangers posed by domestic neofascist terrorist groups and their impact on Italian society. By analyzing legal and parliamentary documents, this paper traces a genealogy of legal and political reforms to combat right-wing extremism and terror in Italy.","text/1a.html_decision1",58,4079,3,4,2006,58,2434,1,1266,12706,1193,9.37248333333333
25,12,72,1,-1,"progressive","Terrorism in Italy","Strage di Bologna conducted by right-wing terrorists","This paper revisits the 1980 Strage di Bologna, a bombing at Bologna Central Station that resulted in 85 deaths and over 200 injuries, an event orchestrated by the neofascist terror organization Nuclei Armati Rivoluzionari. The paper demonstrates how this event highlighted the dangers posed by domestic neofascist terrorist groups and their impact on Italian society. By analyzing legal and parliamentary documents, this paper traces a genealogy of legal and political reforms to combat right-wing extremism and terror in Italy.","text/1a.html_decision1",79,4311,4,5,2936,79,5092,0,1434,58979,NA,44.7174833333333
44,7,44,1,1,"conservative","Terrorism in Italy","Aldo Moro kidnapping conducted by left-wing terrorists","This paper revisits the 1978 kidnapping and murder of Aldo Moro, the former prime minister and then-president of the Democrazia Cristiana party, an event orchestrated by the communist terror organization Brigate Rosse. The paper demonstrates how this event highlighted the dangers posed by domestic left-wing terrorist groups and their impact on Italian society. By analyzing legal and parliamentary documents, this paper traces a genealogy of legal and political reforms to combat left-wing extremism and terror in Italy.","text/1b.html_decision1",27,8537,4,5,3581,31,2741,0,1300,21382,NA,20.3593666666667
32,7,43,1,-1,"progressive","Terrorism in Italy","Strage di Bologna conducted by right-wing terrorists","This paper revisits the 1980 Strage di Bologna, a bombing at Bologna Central Station that resulted in 85 deaths and over 200 injuries, an event orchestrated by the neofascist terror organization Nuclei Armati Rivoluzionari. The paper demonstrates how this event highlighted the dangers posed by domestic neofascist terrorist groups and their impact on Italian society. By analyzing legal and parliamentary documents, this paper traces a genealogy of legal and political reforms to combat right-wing extremism and terror in Italy.","text/1a.html_decision1",70,2167,4,5,2015,70,1710,0,1438,21146,NA,24.216
51,14,85,1,1,"conservative","Terrorism in Italy","Aldo Moro kidnapping conducted by left-wing terrorists","This paper revisits the 1978 kidnapping and murder of Aldo Moro, the former prime minister and then-president of the Democrazia Cristiana party, an event orchestrated by the communist terror organization Brigate Rosse. The paper demonstrates how this event highlighted the dangers posed by domestic left-wing terrorist groups and their impact on Italian society. By analyzing legal and parliamentary documents, this paper traces a genealogy of legal and political reforms to combat left-wing extremism and terror in Italy.","text/1b.html_decision1",0,1811,4,5,2991,0,1597,0,826,27955,NA,39.1102833333333
70,11,65,1,-1,"progressive","Terrorism in Italy","Strage di Bologna conducted by right-wing terrorists","This paper revisits the 1980 Strage di Bologna, a bombing at Bologna Central Station that resulted in 85 deaths and over 200 injuries, an event orchestrated by the neofascist terror organization Nuclei Armati Rivoluzionari. The paper demonstrates how this event highlighted the dangers posed by domestic neofascist terrorist groups and their impact on Italian society. By analyzing legal and parliamentary documents, this paper traces a genealogy of legal and political reforms to combat right-wing extremism and terror in Italy.","text/1a.html_decision1",57,15534,4,5,5467,66,4388,0,1433,42643,NA,18.6958666666667
39,10,64,1,1,"conservative","Terrorism in Italy","Aldo Moro kidnapping conducted by left-wing terrorists","This paper revisits the 1978 kidnapping and murder of Aldo Moro, the former prime minister and then-president of the Democrazia Cristiana party, an event orchestrated by the communist terror organization Brigate Rosse. The paper demonstrates how this event highlighted the dangers posed by domestic left-wing terrorist groups and their impact on Italian society. By analyzing legal and parliamentary documents, this paper traces a genealogy of legal and political reforms to combat left-wing extremism and terror in Italy.","text/1b.html_decision1",39,3849,4,5,4077,29,2788,1,2404,21647,25788,23.8372666666667
7,14,84,1,1,"conservative","Terrorism in Italy","Aldo Moro kidnapping conducted by left-wing terrorists","This paper revisits the 1978 kidnapping and murder of Aldo Moro, the former prime minister and then-president of the Democrazia Cristiana party, an event orchestrated by the communist terror organization Brigate Rosse. The paper demonstrates how this event highlighted the dangers posed by domestic left-wing terrorist groups and their impact on Italian society. By analyzing legal and parliamentary documents, this paper traces a genealogy of legal and political reforms to combat left-wing extremism and terror in Italy.","text/1b.html_decision1",20,2928,4,5,2830,20,2260,0,1248,21852,NA,17.3102166666667
46,4,23,1,1,"conservative","Terrorism in Italy","Aldo Moro kidnapping conducted by left-wing terrorists","This paper revisits the 1978 kidnapping and murder of Aldo Moro, the former prime minister and then-president of the Democrazia Cristiana party, an event orchestrated by the communist terror organization Brigate Rosse. The paper demonstrates how this event highlighted the dangers posed by domestic left-wing terrorist groups and their impact on Italian society. By analyzing legal and parliamentary documents, this paper traces a genealogy of legal and political reforms to combat left-wing extremism and terror in Italy.","text/1b.html_decision1",15,2984,2,3,3284,24,2344,0,4107,1233,NA,4.87618333333333
65,1,5,1,1,"conservative","Terrorism in Italy","Aldo Moro kidnapping conducted by left-wing terrorists","This paper revisits the 1978 kidnapping and murder of Aldo Moro, the former prime minister and then-president of the Democrazia Cristiana party, an event orchestrated by the communist terror organization Brigate Rosse. The paper demonstrates how this event highlighted the dangers posed by domestic left-wing terrorist groups and their impact on Italian society. By analyzing legal and parliamentary documents, this paper traces a genealogy of legal and political reforms to combat left-wing extremism and terror in Italy.","text/1b.html_decision1",39,14568,4,5,7434,40,6372,1,10659,38834,32316,15.97915
53,10,61,1,1,"conservative","Terrorism in Italy","Aldo Moro kidnapping conducted by left-wing terrorists","This paper revisits the 1978 kidnapping and murder of Aldo Moro, the former prime minister and then-president of the Democrazia Cristiana party, an event orchestrated by the communist terror organization Brigate Rosse. The paper demonstrates how this event highlighted the dangers posed by domestic left-wing terrorist groups and their impact on Italian society. By analyzing legal and parliamentary documents, this paper traces a genealogy of legal and political reforms to combat left-wing extremism and terror in Italy.","text/1b.html_decision1",62,3623,2,3,5524,50,12114,0,1318,35557,NA,19.9870833333333
2,1,5,1,-1,"progressive","Terrorism in Italy","Strage di Bologna conducted by right-wing terrorists","This paper revisits the 1980 Strage di Bologna, a bombing at Bologna Central Station that resulted in 85 deaths and over 200 injuries, an event orchestrated by the neofascist terror organization Nuclei Armati Rivoluzionari. The paper demonstrates how this event highlighted the dangers posed by domestic neofascist terrorist groups and their impact on Italian society. By analyzing legal and parliamentary documents, this paper traces a genealogy of legal and political reforms to combat right-wing extremism and terror in Italy.","text/1a.html_decision1",59,16954,2,3,9145,69,14044,1,10519,10480,20375,15.3299166666667
22,14,84,1,1,"conservative","Terrorism in Italy","Aldo Moro kidnapping conducted by left-wing terrorists","This paper revisits the 1978 kidnapping and murder of Aldo Moro, the former prime minister and then-president of the Democrazia Cristiana party, an event orchestrated by the communist terror organization Brigate Rosse. The paper demonstrates how this event highlighted the dangers posed by domestic left-wing terrorist groups and their impact on Italian society. By analyzing legal and parliamentary documents, this paper traces a genealogy of legal and political reforms to combat left-wing extremism and terror in Italy.","text/1b.html_decision1",50,1846,4,5,2990,50,2939,0,905,23584,NA,40.56655
9,1,5,1,-1,"progressive","Terrorism in Italy","Strage di Bologna conducted by right-wing terrorists","This paper revisits the 1980 Strage di Bologna, a bombing at Bologna Central Station that resulted in 85 deaths and over 200 injuries, an event orchestrated by the neofascist terror organization Nuclei Armati Rivoluzionari. The paper demonstrates how this event highlighted the dangers posed by domestic neofascist terrorist groups and their impact on Italian society. By analyzing legal and parliamentary documents, this paper traces a genealogy of legal and political reforms to combat right-wing extremism and terror in Italy.","text/1a.html_decision1",29,12759,4,5,16135,29,3694,0,39926,42272,NA,36.6534166666667
29,10,68,1,1,"conservative","Terrorism in Italy","Aldo Moro kidnapping conducted by left-wing terrorists","This paper revisits the 1978 kidnapping and murder of Aldo Moro, the former prime minister and then-president of the Democrazia Cristiana party, an event orchestrated by the communist terror organization Brigate Rosse. The paper demonstrates how this event highlighted the dangers posed by domestic left-wing terrorist groups and their impact on Italian society. By analyzing legal and parliamentary documents, this paper traces a genealogy of legal and political reforms to combat left-wing extremism and terror in Italy.","text/1b.html_decision1",50,4181,2,3,2401,60,4531,1,1611,25208,19247,31.0823
67,17,117,1,-1,"progressive","Terrorism in Italy","Strage di Bologna conducted by right-wing terrorists","This paper revisits the 1980 Strage di Bologna, a bombing at Bologna Central Station that resulted in 85 deaths and over 200 injuries, an event orchestrated by the neofascist terror organization Nuclei Armati Rivoluzionari. The paper demonstrates how this event highlighted the dangers posed by domestic neofascist terrorist groups and their impact on Italian society. By analyzing legal and parliamentary documents, this paper traces a genealogy of legal and political reforms to combat right-wing extremism and terror in Italy.","text/1a.html_decision1",60,3948,4,5,1620,61,1172,1,1090,22075,817,57.4463666666667
17,4,24,1,1,"conservative","Terrorism in Italy","Aldo Moro kidnapping conducted by left-wing terrorists","This paper revisits the 1978 kidnapping and murder of Aldo Moro, the former prime minister and then-president of the Democrazia Cristiana party, an event orchestrated by the communist terror organization Brigate Rosse. The paper demonstrates how this event highlighted the dangers posed by domestic left-wing terrorist groups and their impact on Italian society. By analyzing legal and parliamentary documents, this paper traces a genealogy of legal and political reforms to combat left-wing extremism and terror in Italy.","text/1b.html_decision1",29,14458,4,5,6785,29,11152,0,3686,43458,NA,23.4265333333333
74,12,75,1,1,"conservative","Terrorism in Italy","Aldo Moro kidnapping conducted by left-wing terrorists","This paper revisits the 1978 kidnapping and murder of Aldo Moro, the former prime minister and then-president of the Democrazia Cristiana party, an event orchestrated by the communist terror organization Brigate Rosse. The paper demonstrates how this event highlighted the dangers posed by domestic left-wing terrorist groups and their impact on Italian society. By analyzing legal and parliamentary documents, this paper traces a genealogy of legal and political reforms to combat left-wing extremism and terror in Italy.","text/1b.html_decision1",59,6055,2,3,5071,59,2631,1,2446,63990,14996,27.755
24,3,17,1,-1,"progressive","Terrorism in Italy","Strage di Bologna conducted by right-wing terrorists","This paper revisits the 1980 Strage di Bologna, a bombing at Bologna Central Station that resulted in 85 deaths and over 200 injuries, an event orchestrated by the neofascist terror organization Nuclei Armati Rivoluzionari. The paper demonstrates how this event highlighted the dangers posed by domestic neofascist terrorist groups and their impact on Italian society. By analyzing legal and parliamentary documents, this paper traces a genealogy of legal and political reforms to combat right-wing extremism and terror in Italy.","text/1a.html_decision1",54,12303,5,6,8119,55,3711,0,1582,27428,NA,23.4921166666667
43,2,12,1,-1,"progressive","Terrorism in Italy","Strage di Bologna conducted by right-wing terrorists","This paper revisits the 1980 Strage di Bologna, a bombing at Bologna Central Station that resulted in 85 deaths and over 200 injuries, an event orchestrated by the neofascist terror organization Nuclei Armati Rivoluzionari. The paper demonstrates how this event highlighted the dangers posed by domestic neofascist terrorist groups and their impact on Italian society. By analyzing legal and parliamentary documents, this paper traces a genealogy of legal and political reforms to combat right-wing extremism and terror in Italy.","text/1a.html_decision1",89,22723,5,6,2895,89,7971,1,1445,24893,9856,52.3669666666667
31,14,94,1,1,"conservative","Terrorism in Italy","Aldo Moro kidnapping conducted by left-wing terrorists","This paper revisits the 1978 kidnapping and murder of Aldo Moro, the former prime minister and then-president of the Democrazia Cristiana party, an event orchestrated by the communist terror organization Brigate Rosse. The paper demonstrates how this event highlighted the dangers posed by domestic left-wing terrorist groups and their impact on Italian society. By analyzing legal and parliamentary documents, this paper traces a genealogy of legal and political reforms to combat left-wing extremism and terror in Italy.","text/1b.html_decision1",70,5535,5,6,2689,70,1945,1,1264,26080,7541,28.1291666666667
50,1,5,1,-1,"progressive","Terrorism in Italy","Strage di Bologna conducted by right-wing terrorists","This paper revisits the 1980 Strage di Bologna, a bombing at Bologna Central Station that resulted in 85 deaths and over 200 injuries, an event orchestrated by the neofascist terror organization Nuclei Armati Rivoluzionari. The paper demonstrates how this event highlighted the dangers posed by domestic neofascist terrorist groups and their impact on Italian society. By analyzing legal and parliamentary documents, this paper traces a genealogy of legal and political reforms to combat right-wing extremism and terror in Italy.","text/1a.html_decision1",49,9325,2,3,6884,80,7030,1,10527,9456,15787,25.6168833333333
69,15,95,1,1,"conservative","Terrorism in Italy","Aldo Moro kidnapping conducted by left-wing terrorists","This paper revisits the 1978 kidnapping and murder of Aldo Moro, the former prime minister and then-president of the Democrazia Cristiana party, an event orchestrated by the communist terror organization Brigate Rosse. The paper demonstrates how this event highlighted the dangers posed by domestic left-wing terrorist groups and their impact on Italian society. By analyzing legal and parliamentary documents, this paper traces a genealogy of legal and political reforms to combat left-wing extremism and terror in Italy.","text/1b.html_decision1",29,5916,4,5,3723,30,2701,0,2028,92589,NA,44.1231666666667
38,9,57,1,1,"conservative","Terrorism in Italy","Aldo Moro kidnapping conducted by left-wing terrorists","This paper revisits the 1978 kidnapping and murder of Aldo Moro, the former prime minister and then-president of the Democrazia Cristiana party, an event orchestrated by the communist terror organization Brigate Rosse. The paper demonstrates how this event highlighted the dangers posed by domestic left-wing terrorist groups and their impact on Italian society. By analyzing legal and parliamentary documents, this paper traces a genealogy of legal and political reforms to combat left-wing extremism and terror in Italy.","text/1b.html_decision1",66,5384,3,4,3663,57,10207,0,1559,15406,NA,18.5516666666667
6,17,114,1,1,"conservative","Terrorism in Italy","Aldo Moro kidnapping conducted by left-wing terrorists","This paper revisits the 1978 kidnapping and murder of Aldo Moro, the former prime minister and then-president of the Democrazia Cristiana party, an event orchestrated by the communist terror organization Brigate Rosse. The paper demonstrates how this event highlighted the dangers posed by domestic left-wing terrorist groups and their impact on Italian society. By analyzing legal and parliamentary documents, this paper traces a genealogy of legal and political reforms to combat left-wing extremism and terror in Italy.","text/1b.html_decision1",60,2959,2,3,2727,60,2085,1,1261,46999,11156,24.1809666666667
57,4,26,1,-1,"progressive","Terrorism in Italy","Strage di Bologna conducted by right-wing terrorists","This paper revisits the 1980 Strage di Bologna, a bombing at Bologna Central Station that resulted in 85 deaths and over 200 injuries, an event orchestrated by the neofascist terror organization Nuclei Armati Rivoluzionari. The paper demonstrates how this event highlighted the dangers posed by domestic neofascist terrorist groups and their impact on Italian society. By analyzing legal and parliamentary documents, this paper traces a genealogy of legal and political reforms to combat right-wing extremism and terror in Italy.","text/1a.html_decision1",39,3708,5,6,3510,30,3327,1,2457,22553,1349,52.7400666666667
64,1,5,1,-1,"progressive","Terrorism in Italy","Strage di Bologna conducted by right-wing terrorists","This paper revisits the 1980 Strage di Bologna, a bombing at Bologna Central Station that resulted in 85 deaths and over 200 injuries, an event orchestrated by the neofascist terror organization Nuclei Armati Rivoluzionari. The paper demonstrates how this event highlighted the dangers posed by domestic neofascist terrorist groups and their impact on Italian society. By analyzing legal and parliamentary documents, this paper traces a genealogy of legal and political reforms to combat right-wing extremism and terror in Italy.","text/1a.html_decision1",79,18033,4,5,13738,81,9448,1,51533,44407,28968,30.2517166666667
14,3,18,1,-1,"progressive","Terrorism in Italy","Strage di Bologna conducted by right-wing terrorists","This paper revisits the 1980 Strage di Bologna, a bombing at Bologna Central Station that resulted in 85 deaths and over 200 injuries, an event orchestrated by the neofascist terror organization Nuclei Armati Rivoluzionari. The paper demonstrates how this event highlighted the dangers posed by domestic neofascist terrorist groups and their impact on Italian society. By analyzing legal and parliamentary documents, this paper traces a genealogy of legal and political reforms to combat right-wing extremism and terror in Italy.","text/1a.html_decision1",60,9305,3,4,5091,60,3948,0,3885,27080,NA,18.5198833333333
71,10,60,1,1,"conservative","Terrorism in Italy","Aldo Moro kidnapping conducted by left-wing terrorists","This paper revisits the 1978 kidnapping and murder of Aldo Moro, the former prime minister and then-president of the Democrazia Cristiana party, an event orchestrated by the communist terror organization Brigate Rosse. The paper demonstrates how this event highlighted the dangers posed by domestic left-wing terrorist groups and their impact on Italian society. By analyzing legal and parliamentary documents, this paper traces a genealogy of legal and political reforms to combat left-wing extremism and terror in Italy.","text/1b.html_decision1",65,4272,4,5,2414,66,3316,0,1354,29905,NA,41.2572666666667
21,14,84,1,1,"conservative","Terrorism in Italy","Aldo Moro kidnapping conducted by left-wing terrorists","This paper revisits the 1978 kidnapping and murder of Aldo Moro, the former prime minister and then-president of the Democrazia Cristiana party, an event orchestrated by the communist terror organization Brigate Rosse. The paper demonstrates how this event highlighted the dangers posed by domestic left-wing terrorist groups and their impact on Italian society. By analyzing legal and parliamentary documents, this paper traces a genealogy of legal and political reforms to combat left-wing extremism and terror in Italy.","text/1b.html_decision1",21,1900,4,5,2180,18,1507,0,962,13980,NA,13.24535
63,8,53,1,-1,"progressive","Terrorism in Italy","Strage di Bologna conducted by right-wing terrorists","This paper revisits the 1980 Strage di Bologna, a bombing at Bologna Central Station that resulted in 85 deaths and over 200 injuries, an event orchestrated by the neofascist terror organization Nuclei Armati Rivoluzionari. The paper demonstrates how this event highlighted the dangers posed by domestic neofascist terrorist groups and their impact on Italian society. By analyzing legal and parliamentary documents, this paper traces a genealogy of legal and political reforms to combat right-wing extremism and terror in Italy.","text/1a.html_decision1",59,1744,4,5,1844,50,2013,1,709,15204,13384,17.3092666666667
28,13,77,1,1,"conservative","Terrorism in Italy","Aldo Moro kidnapping conducted by left-wing terrorists","This paper revisits the 1978 kidnapping and murder of Aldo Moro, the former prime minister and then-president of the Democrazia Cristiana party, an event orchestrated by the communist terror organization Brigate Rosse. The paper demonstrates how this event highlighted the dangers posed by domestic left-wing terrorist groups and their impact on Italian society. By analyzing legal and parliamentary documents, this paper traces a genealogy of legal and political reforms to combat left-wing extremism and terror in Italy.","text/1b.html_decision1",80,3547,5,6,2467,79,2100,0,1111,15886,NA,24.19875
4,12,82,1,1,"conservative","Terrorism in Italy","Aldo Moro kidnapping conducted by left-wing terrorists","This paper revisits the 1978 kidnapping and murder of Aldo Moro, the former prime minister and then-president of the Democrazia Cristiana party, an event orchestrated by the communist terror organization Brigate Rosse. The paper demonstrates how this event highlighted the dangers posed by domestic left-wing terrorist groups and their impact on Italian society. By analyzing legal and parliamentary documents, this paper traces a genealogy of legal and political reforms to combat left-wing extremism and terror in Italy.","text/1b.html_decision1",55,1806,5,6,1705,57,2811,1,4985,16212,3706,24.5788666666667
16,15,90,1,1,"conservative","Terrorism in Italy","Aldo Moro kidnapping conducted by left-wing terrorists","This paper revisits the 1978 kidnapping and murder of Aldo Moro, the former prime minister and then-president of the Democrazia Cristiana party, an event orchestrated by the communist terror organization Brigate Rosse. The paper demonstrates how this event highlighted the dangers posed by domestic left-wing terrorist groups and their impact on Italian society. By analyzing legal and parliamentary documents, this paper traces a genealogy of legal and political reforms to combat left-wing extremism and terror in Italy.","text/1b.html_decision1",89,2015,5,6,1318,79,2204,0,983,49512,NA,29.1092333333333
73,11,66,1,1,"conservative","Terrorism in Italy","Aldo Moro kidnapping conducted by left-wing terrorists","This paper revisits the 1978 kidnapping and murder of Aldo Moro, the former prime minister and then-president of the Democrazia Cristiana party, an event orchestrated by the communist terror organization Brigate Rosse. The paper demonstrates how this event highlighted the dangers posed by domestic left-wing terrorist groups and their impact on Italian society. By analyzing legal and parliamentary documents, this paper traces a genealogy of legal and political reforms to combat left-wing extremism and terror in Italy.","text/1b.html_decision1",52,3558,3,4,1752,51,2776,0,931,15089,NA,12.8285666666667
27,8,52,1,1,"conservative","Terrorism in Italy","Aldo Moro kidnapping conducted by left-wing terrorists","This paper revisits the 1978 kidnapping and murder of Aldo Moro, the former prime minister and then-president of the Democrazia Cristiana party, an event orchestrated by the communist terror organization Brigate Rosse. The paper demonstrates how this event highlighted the dangers posed by domestic left-wing terrorist groups and their impact on Italian society. By analyzing legal and parliamentary documents, this paper traces a genealogy of legal and political reforms to combat left-wing extremism and terror in Italy.","text/1b.html_decision1",66,3065,4,5,2615,59,3399,0,1429,222681,NA,47.0249
42,5,32,1,-1,"progressive","Terrorism in Italy","Strage di Bologna conducted by right-wing terrorists","This paper revisits the 1980 Strage di Bologna, a bombing at Bologna Central Station that resulted in 85 deaths and over 200 injuries, an event orchestrated by the neofascist terror organization Nuclei Armati Rivoluzionari. The paper demonstrates how this event highlighted the dangers posed by domestic neofascist terrorist groups and their impact on Italian society. By analyzing legal and parliamentary documents, this paper traces a genealogy of legal and political reforms to combat right-wing extremism and terror in Italy.","text/1a.html_decision1",39,11170,2,3,5861,39,3279,1,1741,30467,47141,26.4454166666667
61,8,47,1,-1,"progressive","Terrorism in Italy","Strage di Bologna conducted by right-wing terrorists","This paper revisits the 1980 Strage di Bologna, a bombing at Bologna Central Station that resulted in 85 deaths and over 200 injuries, an event orchestrated by the neofascist terror organization Nuclei Armati Rivoluzionari. The paper demonstrates how this event highlighted the dangers posed by domestic neofascist terrorist groups and their impact on Italian society. By analyzing legal and parliamentary documents, this paper traces a genealogy of legal and political reforms to combat right-wing extremism and terror in Italy.","text/1a.html_decision1",39,3671,2,3,3155,50,5574,0,1551,4789,NA,8.6141
49,13,80,1,-1,"progressive","Terrorism in Italy","Strage di Bologna conducted by right-wing terrorists","This paper revisits the 1980 Strage di Bologna, a bombing at Bologna Central Station that resulted in 85 deaths and over 200 injuries, an event orchestrated by the neofascist terror organization Nuclei Armati Rivoluzionari. The paper demonstrates how this event highlighted the dangers posed by domestic neofascist terrorist groups and their impact on Italian society. By analyzing legal and parliamentary documents, this paper traces a genealogy of legal and political reforms to combat right-wing extremism and terror in Italy.","text/1a.html_decision1",100,2576,6,7,2663,100,2288,0,1710,19579,NA,24.3197
34,16,109,1,-1,"progressive","Terrorism in Italy","Strage di Bologna conducted by right-wing terrorists","This paper revisits the 1980 Strage di Bologna, a bombing at Bologna Central Station that resulted in 85 deaths and over 200 injuries, an event orchestrated by the neofascist terror organization Nuclei Armati Rivoluzionari. The paper demonstrates how this event highlighted the dangers posed by domestic neofascist terrorist groups and their impact on Italian society. By analyzing legal and parliamentary documents, this paper traces a genealogy of legal and political reforms to combat right-wing extremism and terror in Italy.","text/1a.html_decision1",39,3232,4,5,2082,39,3098,1,932,2260,1196,23.3266333333333
37,1,5,1,-1,"progressive","Terrorism in Italy","Strage di Bologna conducted by right-wing terrorists","This paper revisits the 1980 Strage di Bologna, a bombing at Bologna Central Station that resulted in 85 deaths and over 200 injuries, an event orchestrated by the neofascist terror organization Nuclei Armati Rivoluzionari. The paper demonstrates how this event highlighted the dangers posed by domestic neofascist terrorist groups and their impact on Italian society. By analyzing legal and parliamentary documents, this paper traces a genealogy of legal and political reforms to combat right-wing extremism and terror in Italy.","text/1a.html_decision1",69,19942,2,3,6953,69,3272,1,4147,18106,5068,15.4192833333333
5,12,72,1,1,"conservative","Terrorism in Italy","Aldo Moro kidnapping conducted by left-wing terrorists","This paper revisits the 1978 kidnapping and murder of Aldo Moro, the former prime minister and then-president of the Democrazia Cristiana party, an event orchestrated by the communist terror organization Brigate Rosse. The paper demonstrates how this event highlighted the dangers posed by domestic left-wing terrorist groups and their impact on Italian society. By analyzing legal and parliamentary documents, this paper traces a genealogy of legal and political reforms to combat left-wing extremism and terror in Italy.","text/1b.html_decision1",64,7114,4,5,1918,59,1767,0,1127,22527,NA,16.3190333333333
56,1,5,1,1,"conservative","Terrorism in Italy","Aldo Moro kidnapping conducted by left-wing terrorists","This paper revisits the 1978 kidnapping and murder of Aldo Moro, the former prime minister and then-president of the Democrazia Cristiana party, an event orchestrated by the communist terror organization Brigate Rosse. The paper demonstrates how this event highlighted the dangers posed by domestic left-wing terrorist groups and their impact on Italian society. By analyzing legal and parliamentary documents, this paper traces a genealogy of legal and political reforms to combat left-wing extremism and terror in Italy.","text/1b.html_decision1",0,10985,0,1,7572,0,18072,0,39280,31246,NA,34.92985
62,8,54,1,-1,"progressive","Terrorism in Italy","Strage di Bologna conducted by right-wing terrorists","This paper revisits the 1980 Strage di Bologna, a bombing at Bologna Central Station that resulted in 85 deaths and over 200 injuries, an event orchestrated by the neofascist terror organization Nuclei Armati Rivoluzionari. The paper demonstrates how this event highlighted the dangers posed by domestic neofascist terrorist groups and their impact on Italian society. By analyzing legal and parliamentary documents, this paper traces a genealogy of legal and political reforms to combat right-wing extremism and terror in Italy.","text/1a.html_decision1",59,3539,4,5,4662,56,2337,1,909,17277,841,14.1099666666667
13,7,42,1,-1,"progressive","Terrorism in Italy","Strage di Bologna conducted by right-wing terrorists","This paper revisits the 1980 Strage di Bologna, a bombing at Bologna Central Station that resulted in 85 deaths and over 200 injuries, an event orchestrated by the neofascist terror organization Nuclei Armati Rivoluzionari. The paper demonstrates how this event highlighted the dangers posed by domestic neofascist terrorist groups and their impact on Italian society. By analyzing legal and parliamentary documents, this paper traces a genealogy of legal and political reforms to combat right-wing extremism and terror in Italy.","text/1a.html_decision1",59,2134,4,5,1745,59,2492,0,1356,26299,NA,17.9572666666667
59,5,30,1,1,"conservative","Terrorism in Italy","Aldo Moro kidnapping conducted by left-wing terrorists","This paper revisits the 1978 kidnapping and murder of Aldo Moro, the former prime minister and then-president of the Democrazia Cristiana party, an event orchestrated by the communist terror organization Brigate Rosse. The paper demonstrates how this event highlighted the dangers posed by domestic left-wing terrorist groups and their impact on Italian society. By analyzing legal and parliamentary documents, this paper traces a genealogy of legal and political reforms to combat left-wing extremism and terror in Italy.","text/1b.html_decision1",51,2665,4,5,4071,50,3328,0,1246,27708,NA,17.6490666666667
20,6,35,1,1,"conservative","Terrorism in Italy","Aldo Moro kidnapping conducted by left-wing terrorists","This paper revisits the 1978 kidnapping and murder of Aldo Moro, the former prime minister and then-president of the Democrazia Cristiana party, an event orchestrated by the communist terror organization Brigate Rosse. The paper demonstrates how this event highlighted the dangers posed by domestic left-wing terrorist groups and their impact on Italian society. By analyzing legal and parliamentary documents, this paper traces a genealogy of legal and political reforms to combat left-wing extremism and terror in Italy.","text/1b.html_decision1",30,2326,6,7,3118,29,2936,0,11662,27107,NA,31.7443833333333
72,7,41,1,-1,"progressive","Terrorism in Italy","Strage di Bologna conducted by right-wing terrorists","This paper revisits the 1980 Strage di Bologna, a bombing at Bologna Central Station that resulted in 85 deaths and over 200 injuries, an event orchestrated by the neofascist terror organization Nuclei Armati Rivoluzionari. The paper demonstrates how this event highlighted the dangers posed by domestic neofascist terrorist groups and their impact on Italian society. By analyzing legal and parliamentary documents, this paper traces a genealogy of legal and political reforms to combat right-wing extremism and terror in Italy.","text/1a.html_decision1",19,2478,5,6,2174,8,1813,0,1862,16115,NA,17.3563333333333
12,8,50,1,-1,"progressive","Terrorism in Italy","Strage di Bologna conducted by right-wing terrorists","This paper revisits the 1980 Strage di Bologna, a bombing at Bologna Central Station that resulted in 85 deaths and over 200 injuries, an event orchestrated by the neofascist terror organization Nuclei Armati Rivoluzionari. The paper demonstrates how this event highlighted the dangers posed by domestic neofascist terrorist groups and their impact on Italian society. By analyzing legal and parliamentary documents, this paper traces a genealogy of legal and political reforms to combat right-wing extremism and terror in Italy.","text/1a.html_decision1",84,3929,5,6,3323,75,4113,1,828,27633,23118,30.9255333333333
58,15,93,1,-1,"progressive","Terrorism in Italy","Strage di Bologna conducted by right-wing terrorists","This paper revisits the 1980 Strage di Bologna, a bombing at Bologna Central Station that resulted in 85 deaths and over 200 injuries, an event orchestrated by the neofascist terror organization Nuclei Armati Rivoluzionari. The paper demonstrates how this event highlighted the dangers posed by domestic neofascist terrorist groups and their impact on Italian society. By analyzing legal and parliamentary documents, this paper traces a genealogy of legal and political reforms to combat right-wing extremism and terror in Italy.","text/1a.html_decision1",30,3831,4,5,1600,30,1887,0,11990,23905,NA,24.9264666666667
15,13,84,1,-1,"progressive","Terrorism in Italy","Strage di Bologna conducted by right-wing terrorists","This paper revisits the 1980 Strage di Bologna, a bombing at Bologna Central Station that resulted in 85 deaths and over 200 injuries, an event orchestrated by the neofascist terror organization Nuclei Armati Rivoluzionari. The paper demonstrates how this event highlighted the dangers posed by domestic neofascist terrorist groups and their impact on Italian society. By analyzing legal and parliamentary documents, this paper traces a genealogy of legal and political reforms to combat right-wing extremism and terror in Italy.","text/1a.html_decision1",29,2316,6,7,2215,29,2948,0,2881,15784,NA,18.1564333333333
48,6,40,1,1,"conservative","Terrorism in Italy","Aldo Moro kidnapping conducted by left-wing terrorists","This paper revisits the 1978 kidnapping and murder of Aldo Moro, the former prime minister and then-president of the Democrazia Cristiana party, an event orchestrated by the communist terror organization Brigate Rosse. The paper demonstrates how this event highlighted the dangers posed by domestic left-wing terrorist groups and their impact on Italian society. By analyzing legal and parliamentary documents, this paper traces a genealogy of legal and political reforms to combat left-wing extremism and terror in Italy.","text/1b.html_decision1",61,2149,2,3,2354,56,2051,1,1261,10571,8425,80.1885666666667
41,12,82,1,-1,"progressive","Terrorism in Italy","Strage di Bologna conducted by right-wing terrorists","This paper revisits the 1980 Strage di Bologna, a bombing at Bologna Central Station that resulted in 85 deaths and over 200 injuries, an event orchestrated by the neofascist terror organization Nuclei Armati Rivoluzionari. The paper demonstrates how this event highlighted the dangers posed by domestic neofascist terrorist groups and their impact on Italian society. By analyzing legal and parliamentary documents, this paper traces a genealogy of legal and political reforms to combat right-wing extremism and terror in Italy.","text/1a.html_decision1",63,2026,3,4,3083,42,1653,1,1644,27143,15698,24.7716833333333
60,16,110,1,-1,"progressive","Terrorism in Italy","Strage di Bologna conducted by right-wing terrorists","This paper revisits the 1980 Strage di Bologna, a bombing at Bologna Central Station that resulted in 85 deaths and over 200 injuries, an event orchestrated by the neofascist terror organization Nuclei Armati Rivoluzionari. The paper demonstrates how this event highlighted the dangers posed by domestic neofascist terrorist groups and their impact on Italian society. By analyzing legal and parliamentary documents, this paper traces a genealogy of legal and political reforms to combat right-wing extremism and terror in Italy.","text/1a.html_decision1",46,3674,2,3,2392,40,1874,1,930,23569,6811,27.0280333333333
55,11,66,1,-1,"progressive","Terrorism in Italy","Strage di Bologna conducted by right-wing terrorists","This paper revisits the 1980 Strage di Bologna, a bombing at Bologna Central Station that resulted in 85 deaths and over 200 injuries, an event orchestrated by the neofascist terror organization Nuclei Armati Rivoluzionari. The paper demonstrates how this event highlighted the dangers posed by domestic neofascist terrorist groups and their impact on Italian society. By analyzing legal and parliamentary documents, this paper traces a genealogy of legal and political reforms to combat right-wing extremism and terror in Italy.","text/1a.html_decision1",5,1848,4,5,1702,6,1482,0,763,17786,NA,15.628
36,7,42,1,-1,"progressive","Terrorism in Italy","Strage di Bologna conducted by right-wing terrorists","This paper revisits the 1980 Strage di Bologna, a bombing at Bologna Central Station that resulted in 85 deaths and over 200 injuries, an event orchestrated by the neofascist terror organization Nuclei Armati Rivoluzionari. The paper demonstrates how this event highlighted the dangers posed by domestic neofascist terrorist groups and their impact on Italian society. By analyzing legal and parliamentary documents, this paper traces a genealogy of legal and political reforms to combat right-wing extremism and terror in Italy.","text/1a.html_decision1",45,3179,4,5,1909,46,2376,0,956,25530,NA,59.5055166666667
19,16,95,1,1,"conservative","Terrorism in Italy","Aldo Moro kidnapping conducted by left-wing terrorists","This paper revisits the 1978 kidnapping and murder of Aldo Moro, the former prime minister and then-president of the Democrazia Cristiana party, an event orchestrated by the communist terror organization Brigate Rosse. The paper demonstrates how this event highlighted the dangers posed by domestic left-wing terrorist groups and their impact on Italian society. By analyzing legal and parliamentary documents, this paper traces a genealogy of legal and political reforms to combat left-wing extremism and terror in Italy.","text/1b.html_decision1",89,1783,5,6,1574,89,2143,0,760,18766,NA,15.3829166666667
35,2,11,1,-1,"progressive","Terrorism in Italy","Strage di Bologna conducted by right-wing terrorists","This paper revisits the 1980 Strage di Bologna, a bombing at Bologna Central Station that resulted in 85 deaths and over 200 injuries, an event orchestrated by the neofascist terror organization Nuclei Armati Rivoluzionari. The paper demonstrates how this event highlighted the dangers posed by domestic neofascist terrorist groups and their impact on Italian society. By analyzing legal and parliamentary documents, this paper traces a genealogy of legal and political reforms to combat right-wing extremism and terror in Italy.","text/1a.html_decision1",79,3518,5,6,4281,79,2478,0,2387,39165,NA,17.6402833333333
49,2,12,2,1,"conservative","Humboldt Forum","Necessary reclamation of Germanys Prussian past","This paper delves into the Humboldt Forums architectural and curatorial choices, particularly its reconstitution of the Prussian palace in Berlin, to explore the complexities of German cultural identity. The Forums placement in a historically charged location symbolizes an attempt to stitch together the fragmented historical narratives of Germany. By reconstructing a key symbol of Prussian heritage, the Forum celebrates an era of profound intellectual, cultural, and scientific achievements. The analysis highlights the Forums curatorial and architectural choices as a necessary reclamation of Germanys Prussian past, which it argues is crucial for a balanced understanding of national identity.","text/2b.html_decision1",19,5291,3,4,3489,29,4738,0,3276,36062,NA,24.3197
48,3,19,2,1,"conservative","Humboldt Forum","Necessary reclamation of Germanys Prussian past","This paper delves into the Humboldt Forums architectural and curatorial choices, particularly its reconstitution of the Prussian palace in Berlin, to explore the complexities of German cultural identity. The Forums placement in a historically charged location symbolizes an attempt to stitch together the fragmented historical narratives of Germany. By reconstructing a key symbol of Prussian heritage, the Forum celebrates an era of profound intellectual, cultural, and scientific achievements. The analysis highlights the Forums curatorial and architectural choices as a necessary reclamation of Germanys Prussian past, which it argues is crucial for a balanced understanding of national identity.","text/2b.html_decision1",30,5134,2,3,1941,55,16502,1,1055,16955,23172,80.1885666666667
47,8,47,2,1,"conservative","Humboldt Forum","Necessary reclamation of Germanys Prussian past","This paper delves into the Humboldt Forums architectural and curatorial choices, particularly its reconstitution of the Prussian palace in Berlin, to explore the complexities of German cultural identity. The Forums placement in a historically charged location symbolizes an attempt to stitch together the fragmented historical narratives of Germany. By reconstructing a key symbol of Prussian heritage, the Forum celebrates an era of profound intellectual, cultural, and scientific achievements. The analysis highlights the Forums curatorial and architectural choices as a necessary reclamation of Germanys Prussian past, which it argues is crucial for a balanced understanding of national identity.","text/2b.html_decision1",71,3559,5,6,5177,69,2249,0,1374,25271,NA,14.3545333333333
39,16,102,2,1,"conservative","Humboldt Forum","Necessary reclamation of Germanys Prussian past","This paper delves into the Humboldt Forums architectural and curatorial choices, particularly its reconstitution of the Prussian palace in Berlin, to explore the complexities of German cultural identity. The Forums placement in a historically charged location symbolizes an attempt to stitch together the fragmented historical narratives of Germany. By reconstructing a key symbol of Prussian heritage, the Forum celebrates an era of profound intellectual, cultural, and scientific achievements. The analysis highlights the Forums curatorial and architectural choices as a necessary reclamation of Germanys Prussian past, which it argues is crucial for a balanced understanding of national identity.","text/2b.html_decision1",60,3072,3,4,2875,59,2908,0,1221,34592,NA,23.8372666666667
46,5,29,2,-1,"progressive","Humboldt Forum","Missed decolonial reinterpretation of the past","This paper delves into the Humboldt Forums architectural and curatorial choices, particularly its reconstitution of the Prussian palace in Berlin, to explore the complexities of German cultural identity and postcolonial criticism. The Forums placement in a historically charged location symbolizes an attempt to re-engage with a glorified Prussian past, overshadowing the critical engagement with its colonial legacies. The analysis highlights the inherent contradictions in using a reconstructed symbol of Prussian dominance as a space intended for global cultural dialogue and the decolonization of museum practices. It argues that the Forums approach exemplifies a missed opportunity to genuinely address and reinterpret Germanys colonial history and its impact on present cultural politics.","text/2a.html_decision1",18,2765,3,4,2147,28,2460,0,2114,1415,NA,4.87618333333333
40,12,82,2,-1,"progressive","Humboldt Forum","Missed decolonial reinterpretation of the past","This paper delves into the Humboldt Forums architectural and curatorial choices, particularly its reconstitution of the Prussian palace in Berlin, to explore the complexities of German cultural identity and postcolonial criticism. The Forums placement in a historically charged location symbolizes an attempt to re-engage with a glorified Prussian past, overshadowing the critical engagement with its colonial legacies. The analysis highlights the inherent contradictions in using a reconstructed symbol of Prussian dominance as a space intended for global cultural dialogue and the decolonization of museum practices. It argues that the Forums approach exemplifies a missed opportunity to genuinely address and reinterpret Germanys colonial history and its impact on present cultural politics.","text/2a.html_decision1",39,7410,4,5,6225,22,3303,1,2006,30315,12148,21.1929333333333
38,13,84,2,1,"conservative","Humboldt Forum","Necessary reclamation of Germanys Prussian past","This paper delves into the Humboldt Forums architectural and curatorial choices, particularly its reconstitution of the Prussian palace in Berlin, to explore the complexities of German cultural identity. The Forums placement in a historically charged location symbolizes an attempt to stitch together the fragmented historical narratives of Germany. By reconstructing a key symbol of Prussian heritage, the Forum celebrates an era of profound intellectual, cultural, and scientific achievements. The analysis highlights the Forums curatorial and architectural choices as a necessary reclamation of Germanys Prussian past, which it argues is crucial for a balanced understanding of national identity.","text/2b.html_decision1",19,2207,4,5,3296,20,1863,0,4632,27798,NA,18.5516666666667
2,13,78,2,1,"conservative","Humboldt Forum","Necessary reclamation of Germanys Prussian past","This paper delves into the Humboldt Forums architectural and curatorial choices, particularly its reconstitution of the Prussian palace in Berlin, to explore the complexities of German cultural identity. The Forums placement in a historically charged location symbolizes an attempt to stitch together the fragmented historical narratives of Germany. By reconstructing a key symbol of Prussian heritage, the Forum celebrates an era of profound intellectual, cultural, and scientific achievements. The analysis highlights the Forums curatorial and architectural choices as a necessary reclamation of Germanys Prussian past, which it argues is crucial for a balanced understanding of national identity.","text/2b.html_decision1",79,4628,4,5,2632,79,4354,0,1536,12597,NA,15.3299166666667
45,3,18,2,1,"conservative","Humboldt Forum","Necessary reclamation of Germanys Prussian past","This paper delves into the Humboldt Forums architectural and curatorial choices, particularly its reconstitution of the Prussian palace in Berlin, to explore the complexities of German cultural identity. The Forums placement in a historically charged location symbolizes an attempt to stitch together the fragmented historical narratives of Germany. By reconstructing a key symbol of Prussian heritage, the Forum celebrates an era of profound intellectual, cultural, and scientific achievements. The analysis highlights the Forums curatorial and architectural choices as a necessary reclamation of Germanys Prussian past, which it argues is crucial for a balanced understanding of national identity.","text/2b.html_decision1",39,8966,5,6,5986,30,9377,0,2047,40040,NA,19.0424
33,10,66,2,1,"conservative","Humboldt Forum","Necessary reclamation of Germanys Prussian past","This paper delves into the Humboldt Forums architectural and curatorial choices, particularly its reconstitution of the Prussian palace in Berlin, to explore the complexities of German cultural identity. The Forums placement in a historically charged location symbolizes an attempt to stitch together the fragmented historical narratives of Germany. By reconstructing a key symbol of Prussian heritage, the Forum celebrates an era of profound intellectual, cultural, and scientific achievements. The analysis highlights the Forums curatorial and architectural choices as a necessary reclamation of Germanys Prussian past, which it argues is crucial for a balanced understanding of national identity.","text/2b.html_decision1",100,2208,6,7,1844,100,2435,0,1355,27913,NA,35.3196166666667
64,2,12,2,1,"conservative","Humboldt Forum","Necessary reclamation of Germanys Prussian past","This paper delves into the Humboldt Forums architectural and curatorial choices, particularly its reconstitution of the Prussian palace in Berlin, to explore the complexities of German cultural identity. The Forums placement in a historically charged location symbolizes an attempt to stitch together the fragmented historical narratives of Germany. By reconstructing a key symbol of Prussian heritage, the Forum celebrates an era of profound intellectual, cultural, and scientific achievements. The analysis highlights the Forums curatorial and architectural choices as a necessary reclamation of Germanys Prussian past, which it argues is crucial for a balanced understanding of national identity.","text/2b.html_decision1",90,3816,5,6,5016,89,5680,0,3328,55955,NA,30.2517166666667
1,13,77,2,1,"conservative","Humboldt Forum","Necessary reclamation of Germanys Prussian past","This paper delves into the Humboldt Forums architectural and curatorial choices, particularly its reconstitution of the Prussian palace in Berlin, to explore the complexities of German cultural identity. The Forums placement in a historically charged location symbolizes an attempt to stitch together the fragmented historical narratives of Germany. By reconstructing a key symbol of Prussian heritage, the Forum celebrates an era of profound intellectual, cultural, and scientific achievements. The analysis highlights the Forums curatorial and architectural choices as a necessary reclamation of Germanys Prussian past, which it argues is crucial for a balanced understanding of national identity.","text/2b.html_decision1",50,2078,5,6,2087,50,1374,0,902,18793,NA,18.2111333333333
21,12,72,2,1,"conservative","Humboldt Forum","Necessary reclamation of Germanys Prussian past","This paper delves into the Humboldt Forums architectural and curatorial choices, particularly its reconstitution of the Prussian palace in Berlin, to explore the complexities of German cultural identity. The Forums placement in a historically charged location symbolizes an attempt to stitch together the fragmented historical narratives of Germany. By reconstructing a key symbol of Prussian heritage, the Forum celebrates an era of profound intellectual, cultural, and scientific achievements. The analysis highlights the Forums curatorial and architectural choices as a necessary reclamation of Germanys Prussian past, which it argues is crucial for a balanced understanding of national identity.","text/2b.html_decision1",89,3126,5,6,3275,91,1682,0,1405,11775,NA,13.24535
51,11,67,2,-1,"progressive","Humboldt Forum","Missed decolonial reinterpretation of the past","This paper delves into the Humboldt Forums architectural and curatorial choices, particularly its reconstitution of the Prussian palace in Berlin, to explore the complexities of German cultural identity and postcolonial criticism. The Forums placement in a historically charged location symbolizes an attempt to re-engage with a glorified Prussian past, overshadowing the critical engagement with its colonial legacies. The analysis highlights the inherent contradictions in using a reconstructed symbol of Prussian dominance as a space intended for global cultural dialogue and the decolonization of museum practices. It argues that the Forums approach exemplifies a missed opportunity to genuinely address and reinterpret Germanys colonial history and its impact on present cultural politics.","text/2a.html_decision1",0,2337,5,6,2885,0,2069,0,1207,58968,NA,39.1102833333333
28,7,41,2,1,"conservative","Humboldt Forum","Necessary reclamation of Germanys Prussian past","This paper delves into the Humboldt Forums architectural and curatorial choices, particularly its reconstitution of the Prussian palace in Berlin, to explore the complexities of German cultural identity. The Forums placement in a historically charged location symbolizes an attempt to stitch together the fragmented historical narratives of Germany. By reconstructing a key symbol of Prussian heritage, the Forum celebrates an era of profound intellectual, cultural, and scientific achievements. The analysis highlights the Forums curatorial and architectural choices as a necessary reclamation of Germanys Prussian past, which it argues is crucial for a balanced understanding of national identity.","text/2b.html_decision1",50,2430,4,5,4248,50,4847,0,1097,32312,NA,24.19875
13,5,30,2,1,"conservative","Humboldt Forum","Necessary reclamation of Germanys Prussian past","This paper delves into the Humboldt Forums architectural and curatorial choices, particularly its reconstitution of the Prussian palace in Berlin, to explore the complexities of German cultural identity. The Forums placement in a historically charged location symbolizes an attempt to stitch together the fragmented historical narratives of Germany. By reconstructing a key symbol of Prussian heritage, the Forum celebrates an era of profound intellectual, cultural, and scientific achievements. The analysis highlights the Forums curatorial and architectural choices as a necessary reclamation of Germanys Prussian past, which it argues is crucial for a balanced understanding of national identity.","text/2b.html_decision1",55,2542,4,5,2111,54,1448,0,767,39421,NA,17.9572666666667
3,16,110,2,-1,"progressive","Humboldt Forum","Missed decolonial reinterpretation of the past","This paper delves into the Humboldt Forums architectural and curatorial choices, particularly its reconstitution of the Prussian palace in Berlin, to explore the complexities of German cultural identity and postcolonial criticism. The Forums placement in a historically charged location symbolizes an attempt to re-engage with a glorified Prussian past, overshadowing the critical engagement with its colonial legacies. The analysis highlights the inherent contradictions in using a reconstructed symbol of Prussian dominance as a space intended for global cultural dialogue and the decolonization of museum practices. It argues that the Forums approach exemplifies a missed opportunity to genuinely address and reinterpret Germanys colonial history and its impact on present cultural politics.","text/2a.html_decision1",59,2210,1,2,1600,80,3467,1,1096,24873,15432,19.1565666666667
50,5,30,2,1,"conservative","Humboldt Forum","Necessary reclamation of Germanys Prussian past","This paper delves into the Humboldt Forums architectural and curatorial choices, particularly its reconstitution of the Prussian palace in Berlin, to explore the complexities of German cultural identity. The Forums placement in a historically charged location symbolizes an attempt to stitch together the fragmented historical narratives of Germany. By reconstructing a key symbol of Prussian heritage, the Forum celebrates an era of profound intellectual, cultural, and scientific achievements. The analysis highlights the Forums curatorial and architectural choices as a necessary reclamation of Germanys Prussian past, which it argues is crucial for a balanced understanding of national identity.","text/2b.html_decision1",30,5774,4,5,2888,39,2763,0,1712,15055,NA,25.6168833333333
23,12,73,2,1,"conservative","Humboldt Forum","Necessary reclamation of Germanys Prussian past","This paper delves into the Humboldt Forums architectural and curatorial choices, particularly its reconstitution of the Prussian palace in Berlin, to explore the complexities of German cultural identity. The Forums placement in a historically charged location symbolizes an attempt to stitch together the fragmented historical narratives of Germany. By reconstructing a key symbol of Prussian heritage, the Forum celebrates an era of profound intellectual, cultural, and scientific achievements. The analysis highlights the Forums curatorial and architectural choices as a necessary reclamation of Germanys Prussian past, which it argues is crucial for a balanced understanding of national identity.","text/2b.html_decision1",80,10387,4,5,2493,80,1815,0,1519,32712,NA,20.5513333333333
10,7,47,2,1,"conservative","Humboldt Forum","Necessary reclamation of Germanys Prussian past","This paper delves into the Humboldt Forums architectural and curatorial choices, particularly its reconstitution of the Prussian palace in Berlin, to explore the complexities of German cultural identity. The Forums placement in a historically charged location symbolizes an attempt to stitch together the fragmented historical narratives of Germany. By reconstructing a key symbol of Prussian heritage, the Forum celebrates an era of profound intellectual, cultural, and scientific achievements. The analysis highlights the Forums curatorial and architectural choices as a necessary reclamation of Germanys Prussian past, which it argues is crucial for a balanced understanding of national identity.","text/2b.html_decision1",100,2138,6,7,1939,100,1659,1,965,7969,890,16.1347333333333
26,7,41,2,-1,"progressive","Humboldt Forum","Missed decolonial reinterpretation of the past","This paper delves into the Humboldt Forums architectural and curatorial choices, particularly its reconstitution of the Prussian palace in Berlin, to explore the complexities of German cultural identity and postcolonial criticism. The Forums placement in a historically charged location symbolizes an attempt to re-engage with a glorified Prussian past, overshadowing the critical engagement with its colonial legacies. The analysis highlights the inherent contradictions in using a reconstructed symbol of Prussian dominance as a space intended for global cultural dialogue and the decolonization of museum practices. It argues that the Forums approach exemplifies a missed opportunity to genuinely address and reinterpret Germanys colonial history and its impact on present cultural politics.","text/2a.html_decision1",100,2525,6,7,2128,100,2621,0,950,35060,NA,18.1592166666667
34,3,18,2,1,"conservative","Humboldt Forum","Necessary reclamation of Germanys Prussian past","This paper delves into the Humboldt Forums architectural and curatorial choices, particularly its reconstitution of the Prussian palace in Berlin, to explore the complexities of German cultural identity. The Forums placement in a historically charged location symbolizes an attempt to stitch together the fragmented historical narratives of Germany. By reconstructing a key symbol of Prussian heritage, the Forum celebrates an era of profound intellectual, cultural, and scientific achievements. The analysis highlights the Forums curatorial and architectural choices as a necessary reclamation of Germanys Prussian past, which it argues is crucial for a balanced understanding of national identity.","text/2b.html_decision1",60,2182,3,4,3549,50,2565,1,2064,38798,31426,23.3266333333333
68,10,63,2,1,"conservative","Humboldt Forum","Necessary reclamation of Germanys Prussian past","This paper delves into the Humboldt Forums architectural and curatorial choices, particularly its reconstitution of the Prussian palace in Berlin, to explore the complexities of German cultural identity. The Forums placement in a historically charged location symbolizes an attempt to stitch together the fragmented historical narratives of Germany. By reconstructing a key symbol of Prussian heritage, the Forum celebrates an era of profound intellectual, cultural, and scientific achievements. The analysis highlights the Forums curatorial and architectural choices as a necessary reclamation of Germanys Prussian past, which it argues is crucial for a balanced understanding of national identity.","text/2b.html_decision1",70,4550,4,5,2288,70,2375,0,1454,17274,NA,45.1274166666667
37,15,90,2,-1,"progressive","Humboldt Forum","Missed decolonial reinterpretation of the past","This paper delves into the Humboldt Forums architectural and curatorial choices, particularly its reconstitution of the Prussian palace in Berlin, to explore the complexities of German cultural identity and postcolonial criticism. The Forums placement in a historically charged location symbolizes an attempt to re-engage with a glorified Prussian past, overshadowing the critical engagement with its colonial legacies. The analysis highlights the inherent contradictions in using a reconstructed symbol of Prussian dominance as a space intended for global cultural dialogue and the decolonization of museum practices. It argues that the Forums approach exemplifies a missed opportunity to genuinely address and reinterpret Germanys colonial history and its impact on present cultural politics.","text/2a.html_decision1",90,3480,6,7,3697,90,2646,0,1614,20062,NA,15.4192833333333
25,3,18,2,1,"conservative","Humboldt Forum","Necessary reclamation of Germanys Prussian past","This paper delves into the Humboldt Forums architectural and curatorial choices, particularly its reconstitution of the Prussian palace in Berlin, to explore the complexities of German cultural identity. The Forums placement in a historically charged location symbolizes an attempt to stitch together the fragmented historical narratives of Germany. By reconstructing a key symbol of Prussian heritage, the Forum celebrates an era of profound intellectual, cultural, and scientific achievements. The analysis highlights the Forums curatorial and architectural choices as a necessary reclamation of Germanys Prussian past, which it argues is crucial for a balanced understanding of national identity.","text/2b.html_decision1",79,6334,4,5,5035,79,25856,0,2621,96296,NA,44.7174833333333
44,1,5,2,1,"conservative","Humboldt Forum","Necessary reclamation of Germanys Prussian past","This paper delves into the Humboldt Forums architectural and curatorial choices, particularly its reconstitution of the Prussian palace in Berlin, to explore the complexities of German cultural identity. The Forums placement in a historically charged location symbolizes an attempt to stitch together the fragmented historical narratives of Germany. By reconstructing a key symbol of Prussian heritage, the Forum celebrates an era of profound intellectual, cultural, and scientific achievements. The analysis highlights the Forums curatorial and architectural choices as a necessary reclamation of Germanys Prussian past, which it argues is crucial for a balanced understanding of national identity.","text/2b.html_decision1",75,11351,4,5,31739,69,33423,0,14239,31462,NA,20.3593666666667
32,6,37,2,1,"conservative","Humboldt Forum","Necessary reclamation of Germanys Prussian past","This paper delves into the Humboldt Forums architectural and curatorial choices, particularly its reconstitution of the Prussian palace in Berlin, to explore the complexities of German cultural identity. The Forums placement in a historically charged location symbolizes an attempt to stitch together the fragmented historical narratives of Germany. By reconstructing a key symbol of Prussian heritage, the Forum celebrates an era of profound intellectual, cultural, and scientific achievements. The analysis highlights the Forums curatorial and architectural choices as a necessary reclamation of Germanys Prussian past, which it argues is crucial for a balanced understanding of national identity.","text/2b.html_decision1",69,2334,4,5,2263,70,2232,0,1807,93942,NA,24.216
63,7,47,2,-1,"progressive","Humboldt Forum","Missed decolonial reinterpretation of the past","This paper delves into the Humboldt Forums architectural and curatorial choices, particularly its reconstitution of the Prussian palace in Berlin, to explore the complexities of German cultural identity and postcolonial criticism. The Forums placement in a historically charged location symbolizes an attempt to re-engage with a glorified Prussian past, overshadowing the critical engagement with its colonial legacies. The analysis highlights the inherent contradictions in using a reconstructed symbol of Prussian dominance as a space intended for global cultural dialogue and the decolonization of museum practices. It argues that the Forums approach exemplifies a missed opportunity to genuinely address and reinterpret Germanys colonial history and its impact on present cultural politics.","text/2a.html_decision1",70,2474,4,5,2419,80,2665,0,3037,19989,NA,17.3092666666667
24,2,11,2,-1,"progressive","Humboldt Forum","Missed decolonial reinterpretation of the past","This paper delves into the Humboldt Forums architectural and curatorial choices, particularly its reconstitution of the Prussian palace in Berlin, to explore the complexities of German cultural identity and postcolonial criticism. The Forums placement in a historically charged location symbolizes an attempt to re-engage with a glorified Prussian past, overshadowing the critical engagement with its colonial legacies. The analysis highlights the inherent contradictions in using a reconstructed symbol of Prussian dominance as a space intended for global cultural dialogue and the decolonization of museum practices. It argues that the Forums approach exemplifies a missed opportunity to genuinely address and reinterpret Germanys colonial history and its impact on present cultural politics.","text/2a.html_decision1",75,4911,5,6,11631,74,4327,0,3238,37881,NA,23.4921166666667
20,10,59,2,-1,"progressive","Humboldt Forum","Missed decolonial reinterpretation of the past","This paper delves into the Humboldt Forums architectural and curatorial choices, particularly its reconstitution of the Prussian palace in Berlin, to explore the complexities of German cultural identity and postcolonial criticism. The Forums placement in a historically charged location symbolizes an attempt to re-engage with a glorified Prussian past, overshadowing the critical engagement with its colonial legacies. The analysis highlights the inherent contradictions in using a reconstructed symbol of Prussian dominance as a space intended for global cultural dialogue and the decolonization of museum practices. It argues that the Forums approach exemplifies a missed opportunity to genuinely address and reinterpret Germanys colonial history and its impact on present cultural politics.","text/2a.html_decision1",9,3110,5,6,3406,11,3846,0,20701,226613,NA,31.7443833333333
35,16,95,2,-1,"progressive","Humboldt Forum","Missed decolonial reinterpretation of the past","This paper delves into the Humboldt Forums architectural and curatorial choices, particularly its reconstitution of the Prussian palace in Berlin, to explore the complexities of German cultural identity and postcolonial criticism. The Forums placement in a historically charged location symbolizes an attempt to re-engage with a glorified Prussian past, overshadowing the critical engagement with its colonial legacies. The analysis highlights the inherent contradictions in using a reconstructed symbol of Prussian dominance as a space intended for global cultural dialogue and the decolonization of museum practices. It argues that the Forums approach exemplifies a missed opportunity to genuinely address and reinterpret Germanys colonial history and its impact on present cultural politics.","text/2a.html_decision1",78,4146,5,6,3087,80,3400,0,1985,24152,NA,17.6402833333333
27,16,102,2,-1,"progressive","Humboldt Forum","Missed decolonial reinterpretation of the past","This paper delves into the Humboldt Forums architectural and curatorial choices, particularly its reconstitution of the Prussian palace in Berlin, to explore the complexities of German cultural identity and postcolonial criticism. The Forums placement in a historically charged location symbolizes an attempt to re-engage with a glorified Prussian past, overshadowing the critical engagement with its colonial legacies. The analysis highlights the inherent contradictions in using a reconstructed symbol of Prussian dominance as a space intended for global cultural dialogue and the decolonization of museum practices. It argues that the Forums approach exemplifies a missed opportunity to genuinely address and reinterpret Germanys colonial history and its impact on present cultural politics.","text/2a.html_decision1",90,2579,6,7,2200,98,2049,0,878,122079,NA,47.0249
12,9,57,2,1,"conservative","Humboldt Forum","Necessary reclamation of Germanys Prussian past","This paper delves into the Humboldt Forums architectural and curatorial choices, particularly its reconstitution of the Prussian palace in Berlin, to explore the complexities of German cultural identity. The Forums placement in a historically charged location symbolizes an attempt to stitch together the fragmented historical narratives of Germany. By reconstructing a key symbol of Prussian heritage, the Forum celebrates an era of profound intellectual, cultural, and scientific achievements. The analysis highlights the Forums curatorial and architectural choices as a necessary reclamation of Germanys Prussian past, which it argues is crucial for a balanced understanding of national identity.","text/2b.html_decision1",19,2343,4,5,2078,0,1756,1,1287,28026,38751,30.9255333333333
30,16,99,2,-1,"progressive","Humboldt Forum","Missed decolonial reinterpretation of the past","This paper delves into the Humboldt Forums architectural and curatorial choices, particularly its reconstitution of the Prussian palace in Berlin, to explore the complexities of German cultural identity and postcolonial criticism. The Forums placement in a historically charged location symbolizes an attempt to re-engage with a glorified Prussian past, overshadowing the critical engagement with its colonial legacies. The analysis highlights the inherent contradictions in using a reconstructed symbol of Prussian dominance as a space intended for global cultural dialogue and the decolonization of museum practices. It argues that the Forums approach exemplifies a missed opportunity to genuinely address and reinterpret Germanys colonial history and its impact on present cultural politics.","text/2a.html_decision1",29,3976,3,4,4463,30,3207,0,1591,49998,NA,25.6369333333333
6,4,26,2,1,"conservative","Humboldt Forum","Necessary reclamation of Germanys Prussian past","This paper delves into the Humboldt Forums architectural and curatorial choices, particularly its reconstitution of the Prussian palace in Berlin, to explore the complexities of German cultural identity. The Forums placement in a historically charged location symbolizes an attempt to stitch together the fragmented historical narratives of Germany. By reconstructing a key symbol of Prussian heritage, the Forum celebrates an era of profound intellectual, cultural, and scientific achievements. The analysis highlights the Forums curatorial and architectural choices as a necessary reclamation of Germanys Prussian past, which it argues is crucial for a balanced understanding of national identity.","text/2b.html_decision1",40,2941,4,5,4774,35,8651,1,8151,34487,7677,24.1809666666667
22,9,54,2,1,"conservative","Humboldt Forum","Necessary reclamation of Germanys Prussian past","This paper delves into the Humboldt Forums architectural and curatorial choices, particularly its reconstitution of the Prussian palace in Berlin, to explore the complexities of German cultural identity. The Forums placement in a historically charged location symbolizes an attempt to stitch together the fragmented historical narratives of Germany. By reconstructing a key symbol of Prussian heritage, the Forum celebrates an era of profound intellectual, cultural, and scientific achievements. The analysis highlights the Forums curatorial and architectural choices as a necessary reclamation of Germanys Prussian past, which it argues is crucial for a balanced understanding of national identity.","text/2b.html_decision1",89,2702,5,6,2210,91,4234,0,726,38040,NA,40.56655
9,14,83,2,1,"conservative","Humboldt Forum","Necessary reclamation of Germanys Prussian past","This paper delves into the Humboldt Forums architectural and curatorial choices, particularly its reconstitution of the Prussian palace in Berlin, to explore the complexities of German cultural identity. The Forums placement in a historically charged location symbolizes an attempt to stitch together the fragmented historical narratives of Germany. By reconstructing a key symbol of Prussian heritage, the Forum celebrates an era of profound intellectual, cultural, and scientific achievements. The analysis highlights the Forums curatorial and architectural choices as a necessary reclamation of Germanys Prussian past, which it argues is crucial for a balanced understanding of national identity.","text/2b.html_decision1",9,3127,3,4,6679,10,3334,0,1551,55389,NA,36.6534166666667
29,1,5,2,-1,"progressive","Humboldt Forum","Missed decolonial reinterpretation of the past","This paper delves into the Humboldt Forums architectural and curatorial choices, particularly its reconstitution of the Prussian palace in Berlin, to explore the complexities of German cultural identity and postcolonial criticism. The Forums placement in a historically charged location symbolizes an attempt to re-engage with a glorified Prussian past, overshadowing the critical engagement with its colonial legacies. The analysis highlights the inherent contradictions in using a reconstructed symbol of Prussian dominance as a space intended for global cultural dialogue and the decolonization of museum practices. It argues that the Forums approach exemplifies a missed opportunity to genuinely address and reinterpret Germanys colonial history and its impact on present cultural politics.","text/2a.html_decision1",69,10251,3,4,8704,60,10515,1,28523,72556,73231,31.0823
52,15,102,2,-1,"progressive","Humboldt Forum","Missed decolonial reinterpretation of the past","This paper delves into the Humboldt Forums architectural and curatorial choices, particularly its reconstitution of the Prussian palace in Berlin, to explore the complexities of German cultural identity and postcolonial criticism. The Forums placement in a historically charged location symbolizes an attempt to re-engage with a glorified Prussian past, overshadowing the critical engagement with its colonial legacies. The analysis highlights the inherent contradictions in using a reconstructed symbol of Prussian dominance as a space intended for global cultural dialogue and the decolonization of museum practices. It argues that the Forums approach exemplifies a missed opportunity to genuinely address and reinterpret Germanys colonial history and its impact on present cultural politics.","text/2a.html_decision1",9,3020,3,4,891,8,2036,0,1557,17404,NA,56.4502666666667
67,6,40,2,-1,"progressive","Humboldt Forum","Missed decolonial reinterpretation of the past","This paper delves into the Humboldt Forums architectural and curatorial choices, particularly its reconstitution of the Prussian palace in Berlin, to explore the complexities of German cultural identity and postcolonial criticism. The Forums placement in a historically charged location symbolizes an attempt to re-engage with a glorified Prussian past, overshadowing the critical engagement with its colonial legacies. The analysis highlights the inherent contradictions in using a reconstructed symbol of Prussian dominance as a space intended for global cultural dialogue and the decolonization of museum practices. It argues that the Forums approach exemplifies a missed opportunity to genuinely address and reinterpret Germanys colonial history and its impact on present cultural politics.","text/2a.html_decision1",90,6150,5,6,4008,90,1602,1,1202,25116,711,57.4463666666667
36,6,36,2,-1,"progressive","Humboldt Forum","Missed decolonial reinterpretation of the past","This paper delves into the Humboldt Forums architectural and curatorial choices, particularly its reconstitution of the Prussian palace in Berlin, to explore the complexities of German cultural identity and postcolonial criticism. The Forums placement in a historically charged location symbolizes an attempt to re-engage with a glorified Prussian past, overshadowing the critical engagement with its colonial legacies. The analysis highlights the inherent contradictions in using a reconstructed symbol of Prussian dominance as a space intended for global cultural dialogue and the decolonization of museum practices. It argues that the Forums approach exemplifies a missed opportunity to genuinely address and reinterpret Germanys colonial history and its impact on present cultural politics.","text/2a.html_decision1",60,2601,4,5,1811,61,1564,0,749,345473,NA,59.5055166666667
59,2,11,2,-1,"progressive","Humboldt Forum","Missed decolonial reinterpretation of the past","This paper delves into the Humboldt Forums architectural and curatorial choices, particularly its reconstitution of the Prussian palace in Berlin, to explore the complexities of German cultural identity and postcolonial criticism. The Forums placement in a historically charged location symbolizes an attempt to re-engage with a glorified Prussian past, overshadowing the critical engagement with its colonial legacies. The analysis highlights the inherent contradictions in using a reconstructed symbol of Prussian dominance as a space intended for global cultural dialogue and the decolonization of museum practices. It argues that the Forums approach exemplifies a missed opportunity to genuinely address and reinterpret Germanys colonial history and its impact on present cultural politics.","text/2a.html_decision1",89,3789,5,6,2429,85,2528,0,4834,31768,NA,17.6490666666667
43,14,87,2,-1,"progressive","Humboldt Forum","Missed decolonial reinterpretation of the past","This paper delves into the Humboldt Forums architectural and curatorial choices, particularly its reconstitution of the Prussian palace in Berlin, to explore the complexities of German cultural identity and postcolonial criticism. The Forums placement in a historically charged location symbolizes an attempt to re-engage with a glorified Prussian past, overshadowing the critical engagement with its colonial legacies. The analysis highlights the inherent contradictions in using a reconstructed symbol of Prussian dominance as a space intended for global cultural dialogue and the decolonization of museum practices. It argues that the Forums approach exemplifies a missed opportunity to genuinely address and reinterpret Germanys colonial history and its impact on present cultural politics.","text/2a.html_decision1",80,4373,4,5,2311,79,5873,0,1411,37480,NA,52.3669666666667
31,2,11,2,-1,"progressive","Humboldt Forum","Missed decolonial reinterpretation of the past","This paper delves into the Humboldt Forums architectural and curatorial choices, particularly its reconstitution of the Prussian palace in Berlin, to explore the complexities of German cultural identity and postcolonial criticism. The Forums placement in a historically charged location symbolizes an attempt to re-engage with a glorified Prussian past, overshadowing the critical engagement with its colonial legacies. The analysis highlights the inherent contradictions in using a reconstructed symbol of Prussian dominance as a space intended for global cultural dialogue and the decolonization of museum practices. It argues that the Forums approach exemplifies a missed opportunity to genuinely address and reinterpret Germanys colonial history and its impact on present cultural politics.","text/2a.html_decision1",50,5831,3,4,7251,50,3090,0,22786,367056,NA,28.1291666666667
62,15,103,2,1,"conservative","Humboldt Forum","Necessary reclamation of Germanys Prussian past","This paper delves into the Humboldt Forums architectural and curatorial choices, particularly its reconstitution of the Prussian palace in Berlin, to explore the complexities of German cultural identity. The Forums placement in a historically charged location symbolizes an attempt to stitch together the fragmented historical narratives of Germany. By reconstructing a key symbol of Prussian heritage, the Forum celebrates an era of profound intellectual, cultural, and scientific achievements. The analysis highlights the Forums curatorial and architectural choices as a necessary reclamation of Germanys Prussian past, which it argues is crucial for a balanced understanding of national identity.","text/2b.html_decision1",0,3217,5,6,2630,0,3306,1,974,16670,1072,14.1099666666667
73,14,85,2,1,"conservative","Humboldt Forum","Necessary reclamation of Germanys Prussian past","This paper delves into the Humboldt Forums architectural and curatorial choices, particularly its reconstitution of the Prussian palace in Berlin, to explore the complexities of German cultural identity. The Forums placement in a historically charged location symbolizes an attempt to stitch together the fragmented historical narratives of Germany. By reconstructing a key symbol of Prussian heritage, the Forum celebrates an era of profound intellectual, cultural, and scientific achievements. The analysis highlights the Forums curatorial and architectural choices as a necessary reclamation of Germanys Prussian past, which it argues is crucial for a balanced understanding of national identity.","text/2b.html_decision1",13,1963,6,7,4537,94,1907,1,1223,30407,2421,12.8285666666667
19,11,65,2,-1,"progressive","Humboldt Forum","Missed decolonial reinterpretation of the past","This paper delves into the Humboldt Forums architectural and curatorial choices, particularly its reconstitution of the Prussian palace in Berlin, to explore the complexities of German cultural identity and postcolonial criticism. The Forums placement in a historically charged location symbolizes an attempt to re-engage with a glorified Prussian past, overshadowing the critical engagement with its colonial legacies. The analysis highlights the inherent contradictions in using a reconstructed symbol of Prussian dominance as a space intended for global cultural dialogue and the decolonization of museum practices. It argues that the Forums approach exemplifies a missed opportunity to genuinely address and reinterpret Germanys colonial history and its impact on present cultural politics.","text/2a.html_decision1",55,2758,3,4,3456,55,1584,0,759,24967,NA,15.3829166666667
61,12,71,2,-1,"progressive","Humboldt Forum","Missed decolonial reinterpretation of the past","This paper delves into the Humboldt Forums architectural and curatorial choices, particularly its reconstitution of the Prussian palace in Berlin, to explore the complexities of German cultural identity and postcolonial criticism. The Forums placement in a historically charged location symbolizes an attempt to re-engage with a glorified Prussian past, overshadowing the critical engagement with its colonial legacies. The analysis highlights the inherent contradictions in using a reconstructed symbol of Prussian dominance as a space intended for global cultural dialogue and the decolonization of museum practices. It argues that the Forums approach exemplifies a missed opportunity to genuinely address and reinterpret Germanys colonial history and its impact on present cultural politics.","text/2a.html_decision1",40,2728,2,3,3009,58,3486,0,2433,4219,NA,8.6141
57,3,19,2,1,"conservative","Humboldt Forum","Necessary reclamation of Germanys Prussian past","This paper delves into the Humboldt Forums architectural and curatorial choices, particularly its reconstitution of the Prussian palace in Berlin, to explore the complexities of German cultural identity. The Forums placement in a historically charged location symbolizes an attempt to stitch together the fragmented historical narratives of Germany. By reconstructing a key symbol of Prussian heritage, the Forum celebrates an era of profound intellectual, cultural, and scientific achievements. The analysis highlights the Forums curatorial and architectural choices as a necessary reclamation of Germanys Prussian past, which it argues is crucial for a balanced understanding of national identity.","text/2b.html_decision1",30,5964,5,6,4154,30,2830,1,6040,22926,6231,52.7400666666667
72,11,65,2,-1,"progressive","Humboldt Forum","Missed decolonial reinterpretation of the past","This paper delves into the Humboldt Forums architectural and curatorial choices, particularly its reconstitution of the Prussian palace in Berlin, to explore the complexities of German cultural identity and postcolonial criticism. The Forums placement in a historically charged location symbolizes an attempt to re-engage with a glorified Prussian past, overshadowing the critical engagement with its colonial legacies. The analysis highlights the inherent contradictions in using a reconstructed symbol of Prussian dominance as a space intended for global cultural dialogue and the decolonization of museum practices. It argues that the Forums approach exemplifies a missed opportunity to genuinely address and reinterpret Germanys colonial history and its impact on present cultural politics.","text/2a.html_decision1",10,1786,5,6,3435,9,1637,0,856,25419,NA,17.3563333333333
